Time_ms,Ax,Ay,Az,Gx,Gy,Gz
0,-14.28,-14.4,-19.61,-4.37,2.03,1.37
26,1.77,4.86,10.01,0.61,-0.16,1.35
52,-1.05,-1.01,9.77,-0.32,-0.53,-0.05
77,0.81,-10.47,8.92,1.57,0.08,0.91
103,1.57,-14.42,3.18,4.37,0.06,3.98
128,-2.5,3.28,-1.73,4.37,0.1,4.01
154,2.21,4.15,4.2,4.37,1.17,4.21
180,1.35,5.41,2.22,4.37,0.22,3.7
204,-1.68,18.91,9.83,4.0,-0.06,1.32
230,-2.45,16.34,9.63,-1.41,0.49,-2.52
255,-6.71,14.21,5.7,-4.37,-1.03,-2.18
281,4.64,14.77,1.06,-4.37,-1.52,-4.37
306,5.61,-1.86,-1.35,-4.37,0.4,-4.37
332,8.28,-17.93,7.72,-4.37,-1.55,-3.71
358,2.83,-6.33,11.62,-1.43,-0.49,0.1
383,0.84,-3.8,10.3,-0.21,-0.56,0.28
409,1.4,-4.64,9.33,0.91,-0.43,1.41
434,0.71,-9.37,7.22,3.79,-0.24,2.93
460,4.25,-6.47,5.8,4.37,0.18,4.26
486,-0.99,12.25,5.88,3.75,-0.07,1.91
510,-4.21,5.95,7.28,2.53,0.1,0.74
536,2.46,1.35,8.22,3.15,0.18,0.77
561,-2.66,6.76,8.26,2.14,0.2,0.41
587,-0.99,10.25,10.8,-0.64,-0.25,-1.46
613,-1.83,13.64,8.24,-4.37,-0.03,-1.18
638,11.51,-3.45,14.4,-4.37,2.56,-4.37
664,4.58,-2.12,5.84,-4.37,0.01,-3.2
689,1.26,-7.43,8.82,-2.79,-1.06,-1.17
715,0.6,-8.81,9.52,-1.69,-0.87,-0.52
741,1.51,-7.53,9.67,1.4,-0.28,1.54
766,2.65,-12.6,6.97,4.37,-0.91,3.02
791,4.36,-13.24,3.3,4.37,0.43,4.37
816,4.67,6.22,7.46,4.37,0.31,3.7
842,1.17,5.15,1.64,4.37,1.13,4.18
868,0.51,14.62,8.62,4.37,0.59,2.99
893,-1.77,12.5,7.91,2.27,-0.07,0.34
919,0.52,3.46,9.2,1.75,-0.15,-2.41
944,-2.53,18.57,8.28,0.41,-0.91,-1.38
970,-1.64,19.61,8.61,-4.37,-1.69,-2.96
996,10.6,19.61,-3.5,-4.37,-2.24,-4.37
1021,6.47,-19.61,-7.25,-4.37,1.27,-4.37
1047,0.35,-19.61,8.45,-1.98,-1.39,-0.61
1072,1.28,1.8,9.27,1.91,-0.28,-0.15
1098,-3.59,2.05,8.21,1.62,0.14,-0.64
1124,-0.43,-4.69,10.28,2.13,-0.16,1.03
1149,1.89,-10.3,6.18,4.37,-0.37,2.27
1175,10.18,13.94,6.45,4.24,0.29,2.7
1200,0.51,-6.81,11.16,4.37,0.11,0.82
1226,-3.17,4.38,3.78,4.37,0.56,1.71
1252,-0.65,7.31,3.76,4.37,0.48,0.89
1277,-0.08,13.12,7.75,4.37,0.77,2.34
1303,-0.88,17.15,5.91,1.84,0.39,1.51
1328,-0.72,19.61,8.23,-2.13,-0.99,-1.52
1354,-1.81,19.61,1.72,-4.37,-0.7,-4.37
1380,10.27,11.16,-4.93,-4.37,-3.02,-4.18
1405,9.8,-2.84,-4.15,-4.37,0.66,-2.24
1431,-3.66,-19.61,3.46,-3.5,-0.49,-2.86
1456,3.02,0.74,8.77,2.29,0.24,1.25
1482,-0.16,-1.14,8.83,0.56,-0.14,0.75
1507,0.25,-6.14,9.09,1.07,0.38,1.7
1532,3.55,-10.28,7.67,4.37,0.76,3.7
1558,9.66,16.51,15.61,4.36,0.37,3.09
1583,-1.94,-0.66,9.68,1.0,0.14,1.27
1609,-1.4,3.35,9.43,1.28,-0.01,0.1
1635,-1.32,-0.56,8.91,0.89,-0.07,-0.23
1660,-4.41,2.78,9.75,0.59,-0.07,-1.06
1686,3.93,12.16,11.7,-3.12,0.3,-2.99
1711,-1.44,8.53,7.29,-4.37,1.49,-2.71
1737,3.02,-18.94,3.12,-4.37,1.1,-2.57
1763,2.26,-10.22,7.88,-2.69,-2.18,-0.77
1788,-0.18,-8.78,7.56,0.06,-2.5,0.89
1814,-1.83,-3.47,9.47,1.83,-1.31,2.55
1839,-0.55,-4.39,9.9,2.53,-0.88,1.63
1865,0.69,-2.51,9.45,4.05,0.18,1.64
1891,-1.79,-0.53,6.52,4.37,0.44,0.93
1916,1.72,1.05,10.77,4.37,1.45,0.75
1942,2.4,0.08,9.89,2.14,0.23,-1.13
1966,1.04,-0.15,10.57,2.08,0.16,0.33
1992,1.44,0.7,10.35,-0.62,0.1,0.62
2018,0.29,13.99,7.59,-3.48,-0.06,-2.05
2043,19.61,3.66,8.37,-4.37,2.06,-4.37
2069,-6.07,-19.61,5.99,-4.37,-1.38,-4.13
2094,5.2,-19.61,8.69,-2.86,-2.81,-0.53
2120,0.54,-9.72,8.17,1.1,-0.72,1.61
2146,0.3,-5.22,9.5,1.82,-0.39,1.49
2171,3.49,-16.75,7.35,4.37,0.5,2.68
2197,0.17,-5.66,2.18,4.37,0.07,3.05
2222,19.55,19.61,4.05,4.37,4.37,4.37
2248,-0.03,-2.58,4.2,4.37,-0.25,2.79
2274,-0.49,8.99,8.38,4.37,1.14,2.99
2299,-1.13,13.3,9.21,4.01,1.4,1.29
2325,-3.11,13.12,9.37,-0.38,-0.92,-1.88
2350,-0.68,19.61,7.16,-4.37,-1.8,-4.28
2376,19.61,12.96,0.57,-4.37,0.88,-4.37
2402,9.9,-16.19,-7.54,-4.37,-0.16,-4.37
2427,4.82,-17.87,4.49,-4.37,-2.54,-3.09
2453,3.22,-1.39,11.78,0.11,-0.21,0.43
2478,0.53,-6.82,9.31,1.25,-0.33,0.8
2504,0.88,-10.06,8.56,3.45,-0.02,1.8
2530,0.47,-6.51,4.03,4.37,0.76,3.32
2555,2.86,-2.4,13.16,4.37,-0.01,4.15
2581,-0.6,2.14,8.65,2.96,0.17,1.23
2606,0.77,1.13,9.8,2.63,0.19,1.13
2632,-1.95,13.91,9.0,1.91,0.25,0.87
2657,-0.41,12.69,8.69,-2.37,-0.44,-1.75
2682,2.48,8.73,7.92,-4.37,-0.01,-2.82
2708,10.35,-12.65,13.71,-4.37,3.52,-2.88
2734,-2.5,-1.73,8.63,-4.37,-1.07,-2.01
2759,1.42,-7.9,6.44,-3.4,-1.37,-1.08
2785,2.09,-10.52,10.74,1.08,-0.19,0.58
2810,1.73,-9.48,7.29,4.37,0.52,2.18
2836,1.81,-0.73,5.11,4.37,0.1,2.36
2861,-5.44,5.72,8.61,4.37,1.4,1.62
2887,0.73,-3.11,7.95,4.37,0.38,1.28
2913,1.44,1.59,8.31,4.37,0.68,2.05
2938,2.89,6.15,8.19,3.94,0.78,2.02
2964,-3.79,19.14,11.89,0.15,-0.02,-0.87
2989,2.83,19.61,3.73,-4.37,-1.77,-4.37
3015,5.66,-5.93,0.31,-4.37,1.46,-4.37
3041,0.13,-19.61,2.6,-4.37,-2.47,-1.16
3066,2.25,-4.07,11.11,0.47,-0.76,0.44
3092,1.75,-1.53,6.6,2.76,-0.64,0.36
3117,2.54,-5.12,9.91,2.21,0.5,1.76
3143,1.07,-6.45,9.28,3.24,0.91,2.34
3169,1.48,-1.88,6.03,4.37,-0.37,2.34
3194,-4.2,7.32,9.19,1.12,-0.09,-0.42
3220,-1.14,-7.73,9.78,3.57,0.33,0.72
3245,0.27,2.19,5.96,4.37,0.11,0.69
3270,0.87,8.1,9.2,3.21,0.48,0.97
3296,0.23,11.46,9.79,-1.75,-0.12,-0.96
3321,3.93,18.92,3.98,-4.37,0.13,-3.19
3347,4.8,-0.09,-5.65,-4.37,-0.78,-2.66
3372,-0.58,-15.22,3.51,-4.37,3.62,-2.61
3398,-0.65,-8.55,12.06,0.87,0.25,1.04
3424,1.03,-4.47,9.88,2.26,0.08,0.73
3449,0.23,-5.19,6.74,3.61,-0.51,1.29
3475,0.58,-11.37,2.96,4.37,-0.58,2.33
3500,19.61,19.61,19.61,4.37,4.37,4.37
3526,-1.56,-3.95,4.24,4.37,0.32,2.06
3552,3.47,-8.81,0.42,4.37,0.81,4.37
3577,-5.54,8.86,3.54,4.37,1.69,3.05
3603,-7.64,19.61,9.2,2.88,0.6,-0.17
3628,-3.58,19.61,9.11,-2.7,-1.69,-2.34
3654,1.0,19.61,3.19,-4.37,-2.33,-4.31
3680,19.5,5.74,-5.15,-4.37,1.83,-4.37
3705,-3.42,-16.07,-12.8,-4.37,-0.69,-4.37
3731,6.67,-19.61,13.32,-4.05,-2.84,-1.73
3756,2.29,-9.45,13.39,1.11,-0.22,0.14
3782,1.83,-2.4,9.14,2.86,0.45,1.12
3808,1.83,-8.69,7.97,3.83,0.39,1.77
3833,1.82,-9.99,5.51,4.37,1.08,3.55
3859,-6.26,4.99,-3.2,4.37,-1.21,3.86
3884,-0.36,-5.51,6.28,1.76,-0.07,-0.09
3910,0.6,-8.08,5.21,4.37,0.3,2.23
3936,-12.44,19.61,9.35,4.37,1.81,2.39
3961,-2.3,11.67,6.89,0.42,-0.31,-0.72
3987,-1.57,19.61,7.26,-4.37,-1.54,-4.25
4012,12.41,6.22,1.64,-4.37,-0.02,-4.37
4038,6.6,-11.31,2.25,-4.37,-0.84,-3.36
4064,-3.26,-8.66,9.18,-1.53,-0.01,-0.25
4088,-3.03,-0.78,8.68,1.67,-0.16,0.45
4114,-1.94,-2.96,7.22,3.62,-0.39,1.48
4139,1.04,-14.91,-0.37,4.37,-0.54,3.83
4165,0.14,8.99,4.14,3.14,0.01,0.68
4191,1.88,-2.41,11.27,3.75,0.16,1.75
4216,5.26,-5.87,5.28,4.37,0.57,2.28
4242,-13.41,18.11,2.7,2.06,-0.32,0.79
4267,-1.14,8.52,9.66,-0.9,-0.35,-0.91
4293,-1.84,16.4,9.84,-4.1,-1.15,-2.65
4319,5.71,12.39,2.55,-4.37,-1.32,-4.37
4344,0.97,-4.09,3.81,-4.37,0.26,-2.57
4370,0.52,-19.61,5.09,-4.37,-0.07,-1.74
4395,1.34,-7.82,11.29,0.77,-0.35,0.67
4421,1.2,-3.22,8.39,2.63,0.13,1.47
4447,0.43,-1.28,9.74,3.33,-0.28,1.8
4472,2.26,-5.5,7.14,4.37,-0.31,2.57
4498,-2.55,7.9,7.21,2.07,0.07,0.56
4523,0.06,-1.71,9.84,1.46,0.17,0.97
4549,-0.35,0.54,8.16,2.68,0.29,1.69
4575,2.33,13.87,8.51,1.9,0.35,1.1
4599,0.45,10.56,7.97,-4.37,-0.26,-4.06
4625,11.42,1.02,5.51,-4.37,1.33,-3.2
4650,0.12,-13.9,10.38,-4.37,-1.45,-2.17
4677,3.13,-12.92,9.96,-1.12,-0.9,-0.51
4703,1.76,-6.63,9.55,2.8,0.46,0.88
4727,1.05,-6.79,7.98,4.37,0.65,1.91
4753,2.03,-10.35,5.84,4.37,0.57,3.08
4778,-5.27,15.26,3.6,4.37,0.43,1.53
4804,-0.43,0.27,10.14,1.12,0.08,0.43
4829,0.01,0.4,9.25,2.06,0.11,0.71
4855,0.28,2.21,9.39,3.32,0.29,1.33
4881,0.47,3.72,9.5,3.62,0.27,1.35
4906,1.83,10.71,8.18,-4.37,-0.79,-3.52
4932,19.61,-4.59,19.61,-4.37,-2.42,-4.37
4957,-2.62,-11.73,1.68,-4.37,-0.56,-3.25
4983,1.39,-9.61,8.64,-2.15,-1.07,-1.14
5009,2.64,-9.24,9.53,2.41,0.17,0.87
5034,1.85,-9.76,6.3,4.37,1.14,2.55
5060,0.01,-5.56,3.0,4.37,-0.01,3.67
5085,-0.5,7.6,7.13,3.15,-0.17,1.22
5111,1.65,0.32,10.57,2.98,0.21,1.17
5137,3.16,-1.84,8.65,4.37,0.6,2.45
5162,4.21,0.33,3.55,4.37,0.98,3.64
5187,-7.49,19.61,13.28,0.95,3.48,-2.23
5213,-0.71,16.69,9.43,-4.37,-0.7,-1.58
5239,1.4,12.85,-0.61,-4.37,-1.08,-4.37
5264,2.69,-7.7,-1.15,-4.37,0.24,-4.37
5289,19.61,-19.61,19.61,-4.02,-3.48,-0.91
5316,-0.16,-4.28,9.52,0.61,-0.19,0.18
5340,0.25,-1.07,9.41,0.73,-0.22,-0.01
5366,0.36,-1.6,9.68,0.05,0.09,0.17
5392,0.05,-2.59,9.3,0.13,0.05,0.3
5417,0.57,-6.18,7.91,1.91,-0.09,0.65
5443,2.05,-12.78,7.2,4.37,-0.02,3.12
5468,-9.12,19.61,2.36,3.38,-0.49,1.61
5494,0.65,1.24,9.84,-0.21,0.13,-0.13
5520,0.47,-10.32,10.16,3.31,0.18,1.45
5545,2.55,-4.61,6.95,4.37,0.95,3.82
5571,1.23,4.47,4.1,4.37,0.94,3.03
5596,-9.22,19.61,10.47,2.94,2.34,0.23
5622,-0.55,14.14,8.07,-2.69,0.06,-0.24
5648,-3.46,10.35,7.87,-4.37,-0.01,-0.52
5673,3.44,17.85,2.04,-4.37,-1.37,-4.18
5699,-1.76,-6.74,-0.67,-4.37,1.51,-4.37
5724,2.38,-9.96,4.08,-4.37,-0.61,-3.77
5750,-1.62,-12.38,10.04,-2.16,-0.6,-0.98
5776,1.74,-5.99,9.09,2.02,-0.36,0.88
5801,0.83,-1.13,10.24,2.48,0.01,1.48
5827,1.43,-7.66,8.72,4.37,0.17,2.04
5852,2.31,-10.18,14.08,4.37,-0.38,3.84
5878,1.5,4.71,7.71,4.37,0.13,1.61
5904,-0.85,6.14,8.19,3.14,0.38,1.49
5928,0.56,3.01,10.66,2.39,0.32,1.09
5954,1.13,4.74,9.62,1.92,0.29,0.81
5979,-7.36,8.83,10.34,-1.9,0.34,-0.47
6005,2.02,17.07,8.19,-4.37,-0.6,-3.16
6031,4.22,1.82,1.93,-4.37,0.93,-4.37
6056,1.65,-13.89,1.69,-4.37,-0.65,-4.37
6082,4.6,-17.42,12.13,-1.29,-0.63,0.34
6107,-0.19,-4.71,8.15,2.04,0.13,0.63
6133,0.96,-2.84,8.87,2.71,0.25,0.87
6159,0.83,-5.96,7.91,4.15,0.46,2.09
6184,2.08,-0.92,9.16,3.73,-0.29,1.32
6210,1.29,-4.85,4.38,4.37,-0.27,2.13
6235,-1.38,7.32,11.6,1.78,0.26,0.8
6261,0.36,-1.74,10.28,1.2,0.11,0.28
6287,0.4,-5.39,9.93,3.16,0.07,0.82
6312,-0.04,-1.62,6.07,4.37,-0.14,-0.01
6338,0.05,5.93,2.86,4.37,-0.3,0.4
6363,-17.72,8.01,5.78,-0.87,0.13,0.29
6388,1.64,12.44,8.39,-4.37,-0.21,-1.62
6414,3.66,0.17,6.76,-4.37,-0.03,-3.26
6439,-1.53,-3.75,6.28,-4.37,0.37,-2.52
6465,-0.91,-1.87,8.7,-1.47,-0.55,-0.72
6490,0.81,-1.07,10.47,-0.13,-0.54,-0.62
6516,3.48,2.35,11.84,0.27,0.02,-1.27
6542,-1.79,0.77,9.16,0.93,-0.11,-2.4
6567,-1.13,0.65,9.65,0.57,0.04,-0.06
6593,0.63,-2.32,10.08,1.29,0.14,1.23
6618,-0.13,3.83,10.81,1.93,0.04,0.38
6644,1.27,0.61,9.24,1.26,0.17,0.73
6670,0.75,-0.83,10.47,0.47,0.1,0.02
6695,-3.9,5.57,7.69,-4.37,-0.27,-1.13
6721,0.66,2.82,8.54,-4.37,-1.24,-0.86
6746,-1.84,-5.5,5.07,-4.37,-0.18,-0.7
6772,0.2,-13.07,9.87,-2.01,-0.5,-0.7
6798,-1.22,-15.87,7.47,3.79,-0.5,2.14
6823,0.66,-0.01,3.98,4.37,0.5,3.28
6849,-7.59,5.21,-2.26,4.37,2.0,1.42
6873,0.68,-1.65,10.44,2.16,0.26,0.96
6899,3.42,0.08,5.55,4.37,0.4,2.25
6925,0.76,7.72,5.16,4.37,0.61,1.87
6950,-0.16,5.98,7.55,3.22,0.32,1.33
6976,-0.41,7.96,9.82,1.45,0.09,0.72
7001,-8.35,2.97,8.16,-3.1,0.94,-0.39
7027,-11.45,6.51,7.0,-4.37,-0.33,0.58
7053,5.59,9.29,2.25,-4.37,0.75,-4.37
7078,5.01,-5.81,1.08,-4.37,-1.28,-3.59
7104,3.98,-16.37,14.0,-1.7,-0.43,-0.36
7129,0.48,-5.96,7.19,3.72,0.23,0.88
7155,1.21,-0.88,9.68,4.37,0.43,1.73
7181,-4.96,-0.34,5.43,4.37,-0.36,1.44
7206,-1.38,6.92,9.42,3.47,-0.09,1.4
7232,0.65,0.42,9.55,2.89,0.32,1.25
7257,0.69,4.08,8.08,3.51,0.4,1.58
7282,0.19,19.61,19.47,-1.94,1.44,-0.16
7308,-0.49,13.64,8.19,-4.37,0.36,-2.94
7333,-2.67,-4.94,4.94,-4.37,0.81,-3.79
7359,-2.23,-10.34,2.95,-4.37,-1.37,-1.24
7384,2.09,-8.64,10.04,-0.7,-0.62,0.26
7410,0.79,-2.98,9.04,2.23,-0.36,0.1
7436,2.16,-4.46,10.52,3.22,0.26,0.63
7461,-0.74,-7.02,4.73,4.37,-0.3,1.29
7487,14.37,11.44,19.61,4.37,0.51,3.53
7512,-0.13,1.58,8.43,2.52,0.06,0.54
7538,1.33,-3.17,14.3,3.18,0.13,0.88
7564,3.26,-9.39,-0.28,4.37,1.25,4.23
7589,-4.75,19.61,-3.04,4.37,-0.41,3.78
7615,3.82,19.61,12.11,2.43,0.93,-3.02
7640,3.0,10.19,8.51,-0.24,-0.02,-0.05
7666,-0.73,7.85,6.6,-1.74,0.31,0.17
7692,-1.82,9.05,8.21,-2.3,-0.01,-0.28
7717,-0.19,13.94,9.74,-4.37,-0.39,-1.06
7743,3.5,16.38,4.81,-4.37,0.22,-1.29
7768,4.64,6.45,-7.52,-4.37,3.27,-4.37
7794,3.27,-12.16,-0.11,-4.37,0.31,-3.66
7820,-0.01,-16.75,11.69,-0.97,-1.05,-0.47
7845,-0.66,-6.07,9.68,2.4,-0.83,0.06
7871,2.02,-1.85,10.24,2.8,0.32,1.49
7896,-1.32,2.23,8.48,0.7,0.42,0.69
7922,0.45,3.65,12.31,-1.12,0.12,0.05
7948,1.58,-0.3,9.4,-2.89,0.73,-0.22
7973,-3.42,-4.87,7.5,-3.49,0.59,-0.17
7999,-1.47,-11.19,9.88,-2.21,-0.3,2.04
8024,0.55,-3.54,9.87,-0.25,0.14,2.26
8049,-0.11,-4.55,9.84,2.49,0.6,1.55
8075,-13.26,19.24,19.61,2.32,-1.01,0.99
8100,2.09,-12.65,12.5,4.37,0.15,1.97
8126,-2.17,12.84,13.35,4.37,0.18,2.99
8151,-5.88,-2.65,-0.89,3.01,-4.37,-0.32
8177,18.95,5.72,-15.42,3.5,4.37,-0.09
8203,-0.77,2.65,10.21,3.17,-0.02,0.09
8228,1.24,1.91,7.29,2.81,0.28,0.71
8254,0.46,5.73,10.83,1.75,0.42,0.74
8279,-5.72,9.33,7.2,0.0,-0.18,-0.65
8305,-1.19,19.61,6.62,-4.37,-1.0,-2.35
8331,2.95,5.15,3.07,-4.37,-0.7,-2.8
8356,-6.32,-1.83,-19.61,-4.37,2.95,-2.47
8382,1.06,-11.15,7.72,-4.37,-0.36,-3.45
8407,2.96,-14.29,10.32,-2.05,-1.5,-1.15
8433,2.96,-6.32,9.81,0.57,-0.08,0.56
8459,1.36,-5.16,9.06,0.85,0.46,1.36
8484,2.02,-12.07,9.48,3.08,0.63,2.96
8510,7.81,-4.22,13.25,4.37,-1.01,1.88
8535,2.06,-7.76,1.53,4.37,-0.38,2.97
8561,1.32,14.1,2.79,3.82,0.51,2.61
8587,-1.93,5.89,9.84,-1.15,0.23,-0.15
8612,0.03,0.65,9.17,-1.25,-0.27,-1.26
8638,0.62,-3.08,10.4,-0.38,0.06,-0.31
8663,-0.56,6.52,9.79,-1.33,-0.14,-1.12
8689,0.69,5.32,11.72,-3.46,-0.21,-3.24
8715,4.64,1.23,12.07,-4.37,-0.18,-3.52
8740,3.17,-5.27,9.07,-4.28,0.55,-2.05
8766,1.53,-8.97,6.81,-1.44,1.0,-0.06
8791,0.21,-6.34,4.87,1.72,0.66,1.39
8816,2.51,1.84,9.81,1.15,2.11,0.81
8842,1.2,-6.44,11.4,-1.12,-0.55,0.92
8867,1.13,-6.64,9.98,0.08,0.53,0.49
8893,-1.39,-0.38,9.33,0.73,0.84,-0.01
8918,-2.04,0.5,9.48,0.31,1.62,-0.61
8944,-2.35,-4.09,8.44,0.43,1.61,0.49
8970,-1.21,-1.59,11.77,3.1,2.01,0.4
8995,-1.74,-2.35,4.89,3.01,2.17,1.67
9021,-7.55,6.79,6.53,2.08,0.56,0.59
9046,-4.9,-0.2,8.37,0.16,-0.91,-1.14
9072,-4.03,-2.57,6.97,-0.01,-1.47,-0.12
9098,-3.6,-2.86,7.31,-0.21,-3.42,0.79
9123,-1.77,-1.06,9.06,-0.01,-3.97,1.25
9149,-1.07,1.68,8.33,-0.91,-4.37,1.91
9174,4.07,-4.56,13.42,-1.21,-2.48,-1.37
9200,4.29,-0.92,9.5,0.29,-1.51,0.58
9224,6.05,0.37,9.61,1.8,-0.78,0.44
9250,3.34,-0.36,8.38,2.2,0.5,0.32
9276,0.65,2.5,9.91,2.56,0.2,0.71
9301,5.39,-3.93,9.44,3.81,1.82,0.48
9327,4.63,3.71,7.62,4.37,3.24,1.49
9352,-2.05,7.48,8.86,3.2,3.56,2.26
9378,-1.32,16.8,10.31,0.67,1.2,0.61
9404,0.29,19.61,19.61,-3.02,1.25,-1.43
9429,7.37,17.42,5.69,-4.37,2.39,-4.37
9455,-2.2,-1.85,-4.99,-4.37,1.87,-4.37
9480,2.32,-19.61,3.16,-4.37,-0.31,-3.19
9506,3.16,-4.0,13.53,1.27,-0.36,1.29
9532,-0.4,-1.54,10.27,2.35,1.01,2.75
9557,-1.6,-1.32,7.56,2.59,0.61,2.34
9583,-4.65,-16.11,-2.02,4.37,-0.67,2.84
9608,-19.61,19.61,12.08,3.76,-0.88,2.85
9634,4.16,5.46,13.89,1.8,-0.8,2.65
9660,-0.28,7.67,9.24,0.9,0.62,1.19
9685,-1.45,2.69,9.65,-0.78,0.6,0.16
9711,-5.39,11.96,6.16,-2.85,-0.87,-2.34
9736,-4.08,0.75,7.38,-4.37,-2.91,-4.37
9762,0.51,-11.54,8.09,-2.55,-4.33,-2.95
9788,1.45,-9.55,8.3,1.02,-4.37,0.97
9813,-0.08,-2.91,6.51,3.71,-4.37,0.78
9838,9.06,7.6,10.5,1.55,0.05,1.21
9863,1.45,1.62,9.39,1.41,0.31,1.05
9889,1.73,0.0,9.4,2.3,-0.02,0.54
9915,5.04,-0.62,9.78,3.25,0.48,0.01
9940,2.0,1.43,8.18,4.0,1.9,1.27
9966,2.5,7.28,10.58,2.95,1.9,0.21
9991,5.36,13.28,11.21,-1.65,3.87,-0.89
10017,5.93,8.7,8.19,-4.37,4.37,-1.88
10043,-11.18,1.19,-2.89,-4.37,3.42,-2.23
10068,0.02,-10.36,11.32,-1.18,0.92,-0.06
10094,0.91,-3.34,11.83,1.16,1.96,-0.26
10119,1.07,9.73,14.49,0.39,2.64,-0.73
10145,-2.47,-0.69,8.91,0.35,2.53,-0.41
10171,-7.48,-1.05,7.57,-0.2,2.31,0.07
10196,-5.94,2.91,7.7,-0.34,0.58,-0.56
10222,-7.9,-0.89,5.85,-0.35,-0.36,-0.21
10247,-7.92,-0.15,5.65,-0.07,-1.93,-0.73
10273,-10.46,3.26,-0.14,-0.75,-4.37,-1.6
10299,-0.34,-8.57,7.78,0.5,-4.37,-1.46
10324,2.9,-1.14,7.39,3.0,-4.37,0.57
10350,13.49,10.03,16.13,-0.23,0.26,-1.06
10375,-2.21,0.51,8.3,-0.7,1.83,3.37
10401,-1.95,4.58,10.55,0.46,0.07,0.74
10427,-0.65,1.67,10.38,-0.51,-1.13,0.71
10452,4.05,-5.71,9.73,1.32,-0.94,2.06
10478,6.58,3.93,9.36,4.29,1.64,1.49
10503,5.41,5.14,7.17,4.37,2.9,1.59
10529,4.69,8.63,8.24,1.18,0.93,1.7
10555,1.36,2.02,9.07,0.62,0.41,0.96
10580,-3.37,4.12,8.47,-0.36,0.13,0.16
10606,-0.24,4.56,10.13,-1.41,0.28,0.65
10631,1.93,15.38,13.9,-3.05,0.6,-1.93
10657,14.21,19.61,9.78,-4.37,4.37,-4.37
10683,-1.39,-3.27,-11.31,-4.37,1.74,-4.37
10708,-3.95,-19.61,8.42,-4.37,-2.45,-3.65
10735,3.97,-12.11,11.58,-0.17,0.15,-0.46
10760,-3.31,-6.86,5.87,2.2,-0.69,0.74
10786,2.74,-14.65,8.84,4.37,-0.68,2.56
10812,-0.11,-8.66,0.42,4.37,-0.68,4.37
10837,-6.74,7.86,-0.9,4.37,-4.37,4.37
10863,-13.36,11.76,3.66,4.37,1.21,2.32
10888,-0.43,2.38,8.8,4.25,1.17,2.26
10914,-1.44,12.52,8.34,2.9,1.07,1.6
10940,2.02,7.96,9.13,-0.39,0.07,0.02
10965,-4.56,16.88,8.23,-3.43,0.23,-0.71
10991,9.89,19.61,6.35,-4.37,1.05,-4.37
11016,-19.61,-19.61,4.8,-4.37,1.37,-4.37
11042,-1.88,-19.61,-4.94,-4.37,-2.28,-4.37
11068,2.34,-12.97,12.95,2.13,-1.63,0.6
11093,0.64,3.18,10.15,2.23,-1.39,0.3
11119,-0.6,-6.04,8.79,1.18,-0.12,0.78
11144,-0.09,-7.13,6.58,3.53,-0.08,1.71
11170,1.46,-7.75,2.55,4.37,-0.24,3.98
11196,-3.69,5.96,3.85,4.37,0.26,2.18
11221,0.47,3.67,8.56,3.66,0.4,2.38
11247,1.62,3.04,7.75,4.11,0.96,2.74
11272,-0.72,9.75,8.32,1.38,0.5,1.16
11298,-0.68,8.19,12.07,-0.53,0.43,0.19
11324,0.96,19.61,6.59,-4.37,-0.94,-3.57
11349,6.41,12.51,2.43,-4.37,1.16,-4.37
11375,19.61,-19.61,19.61,-4.37,-4.28,-4.37
11400,2.06,-17.66,7.12,-0.76,-1.33,-0.16
11426,1.96,-4.76,9.49,1.01,-0.4,1.29
11452,1.27,-5.78,8.71,1.59,-0.11,1.2
11477,3.27,-4.53,8.97,2.78,0.44,0.24
11503,1.05,-6.62,6.95,4.37,-0.11,1.95
11528,-0.97,-3.5,5.6,4.37,-0.52,1.1
11554,18.96,8.26,19.61,4.37,1.41,2.95
11580,-1.23,7.05,4.35,4.37,-0.0,1.43
11605,3.78,1.7,6.03,4.37,0.72,3.26
11631,0.76,5.77,4.76,4.37,0.36,2.68
11656,0.4,15.06,8.36,3.3,1.11,1.19
11682,0.6,19.61,9.9,-2.36,0.97,-2.02
11708,4.81,12.33,7.96,-4.37,-0.07,-2.22
11733,2.32,16.55,5.71,-4.37,-0.26,-4.37
11759,3.63,0.66,-1.64,-4.37,-0.06,-4.37
11784,-1.3,-19.61,4.74,-4.37,-1.95,-3.66
11810,2.52,-9.8,14.59,-0.06,-0.87,0.34
11836,-0.04,0.68,9.45,1.87,-0.1,1.06
11861,0.73,-1.52,8.9,1.66,-0.16,1.0
11887,0.85,-7.81,8.0,3.92,-0.03,1.84
11912,1.02,-6.23,5.76,4.37,0.0,3.26
11938,1.53,-0.92,3.53,4.37,0.17,2.81
11964,3.12,3.26,4.27,4.37,1.31,3.81
11989,2.57,9.02,6.49,4.37,0.53,3.64
12015,0.49,15.81,8.54,2.11,1.06,0.2
12040,-5.77,14.54,9.2,-1.05,0.81,-1.74
12066,-4.7,19.61,8.08,-4.37,-1.87,-2.81
12092,6.28,12.53,0.64,-4.37,-2.12,-3.66
12117,2.82,2.47,-6.63,-4.37,-0.71,-4.37
12143,-10.71,-19.61,19.61,-4.37,0.82,-2.2
12168,-0.24,-3.06,11.05,-1.89,-0.99,-0.39
12194,0.99,-5.14,7.64,-0.6,-1.13,-0.38
12220,2.09,-3.56,9.67,0.3,-0.03,0.8
12245,1.01,-7.59,9.59,1.69,0.14,1.27
12271,-0.45,-10.17,5.27,4.37,0.27,2.58
12296,4.46,-3.72,10.25,4.37,0.27,3.02
12322,-4.84,11.54,4.16,4.37,0.14,2.64
12348,-0.32,8.26,8.83,3.12,0.18,0.56
12373,0.77,7.03,10.13,0.97,0.29,0.4
12399,-2.3,4.4,8.79,-0.21,0.26,-0.01
12424,-11.45,18.45,5.69,-4.37,-0.1,-0.45
12450,2.16,7.48,1.74,-4.37,-0.71,-4.12
12476,3.28,-4.24,-1.78,-4.37,1.69,-3.68
12501,-1.68,-13.2,10.21,-4.37,-0.28,-1.76
12527,-1.01,-6.61,10.07,-0.1,-1.0,-0.49
12552,1.26,-7.84,9.31,2.93,-0.22,0.73
12578,1.78,-7.19,7.18,4.37,0.26,1.95
12604,5.61,-7.24,9.85,4.37,0.66,3.67
12629,4.81,12.08,6.19,4.02,0.62,1.55
12655,2.28,1.54,9.55,2.3,0.32,1.02
12680,2.23,3.1,8.17,1.98,0.26,0.74
12706,-0.54,8.27,9.41,0.44,0.26,0.24
12732,2.69,6.91,10.89,0.07,0.03,-0.1
12757,2.17,18.48,0.4,-4.37,0.36,-1.17
12783,2.76,-3.0,3.71,-4.37,-1.12,-4.37
12808,5.54,2.85,10.88,-4.37,0.62,-2.56
12834,1.49,-19.61,9.89,-2.88,-0.85,-1.44
12860,0.08,-6.47,9.36,1.09,-0.67,0.21
12885,1.15,-8.81,8.66,3.31,0.02,1.24
12911,-0.38,-8.91,3.18,4.37,-0.36,2.01
12936,12.07,-0.67,15.96,4.37,1.11,4.37
12962,6.73,7.13,4.06,4.37,0.81,2.78
12988,0.13,1.74,5.9,4.37,0.91,1.97
13013,1.95,5.14,4.46,4.37,0.6,0.93
13039,-3.4,14.85,3.94,3.08,0.89,0.78
13064,0.11,13.19,7.91,-0.17,-0.26,-0.54
13090,-4.96,19.61,6.56,-4.37,-1.7,-2.61
13116,4.55,19.61,-6.78,-4.37,-2.5,-4.37
13141,11.34,-1.11,-11.13,-4.37,-0.63,-4.37
13167,2.46,-19.61,-2.81,-4.37,-0.11,-2.03
13192,0.03,-11.67,9.87,1.54,-1.56,0.8
13218,3.07,-1.47,8.43,1.37,-0.05,1.48
13244,1.05,-8.16,8.73,2.76,0.83,2.53
13269,-19.61,14.89,11.77,4.37,-0.78,1.49
13295,3.34,-7.82,2.68,4.37,-0.42,2.78
13320,8.83,11.24,18.1,4.37,0.08,4.37
13346,1.19,12.16,7.68,2.08,0.33,1.12
13372,-0.26,0.16,9.81,-0.29,-0.0,-0.18
13397,0.58,1.83,9.93,-0.06,0.02,-0.01
13423,0.41,5.36,9.83,-0.32,0.04,-0.01
13448,1.23,4.84,9.04,-0.28,-0.17,-0.41
13474,-1.87,12.04,3.2,-4.37,0.52,-4.37
13500,5.53,5.42,-3.96,-4.37,0.74,-4.37
13525,0.87,-19.61,2.01,-4.37,-1.36,-2.87
13551,0.75,-6.37,8.35,-1.05,-0.65,-0.84
13576,2.22,-9.0,9.5,1.61,-0.03,0.62
13602,2.71,-8.37,10.37,3.83,0.57,2.25
13628,0.38,-8.34,6.55,4.37,0.07,2.9
13653,4.97,-6.46,5.02,4.37,0.41,4.37
13679,4.37,9.77,7.07,2.78,0.09,0.62
13704,0.4,6.76,8.97,0.6,0.05,0.02
13730,0.16,2.34,9.81,0.26,-0.02,-0.5
13756,1.18,3.55,9.71,-0.2,-0.14,-0.51
13781,0.97,2.53,9.95,-0.61,-0.07,-1.07
13806,0.67,0.47,10.26,-0.7,-0.14,-1.42
13832,-6.11,19.61,16.94,-4.37,0.16,-2.22
13858,-19.61,-9.4,-17.16,-4.37,-0.49,-4.37
13884,-1.8,1.68,-3.16,-4.37,0.68,-2.57
13909,3.66,-19.61,7.15,-3.85,-1.33,-1.81
13935,-0.07,-9.62,10.0,0.76,0.21,0.47
13960,1.04,-9.21,7.47,3.8,1.03,1.9
13986,1.36,-2.4,5.11,4.37,-0.87,0.6
14012,7.81,-8.41,4.4,4.37,-0.65,2.28
14037,8.72,19.61,19.61,4.37,-0.57,3.58
14063,1.46,6.27,8.71,1.24,0.14,0.49
14088,-0.18,2.09,9.55,0.1,0.03,0.1
14114,0.11,1.61,9.82,0.26,0.04,-0.02
14140,0.45,2.02,9.38,0.51,-0.0,-0.36
14164,-16.08,12.48,-9.26,-4.37,0.86,4.05
14191,19.61,-4.24,19.61,-4.37,0.42,-4.37
14216,1.04,2.34,8.19,-4.37,0.38,-1.81
14242,-7.75,-13.07,5.59,-4.37,-0.04,-2.88
14268,2.45,-5.53,10.17,-2.07,-0.18,-0.97
14293,1.9,-12.9,10.18,1.44,0.12,1.67
14319,-11.37,-6.65,11.64,4.37,-0.21,2.85
14344,1.92,-8.52,1.67,4.37,-0.56,3.14
14370,-6.19,19.61,19.11,4.37,0.86,4.32
14396,-0.61,6.5,8.98,1.22,0.11,0.74
14421,0.05,2.26,9.8,0.13,-0.04,-0.49
14447,-0.09,-0.57,9.06,1.08,0.15,0.6
14472,0.74,0.95,7.94,2.46,0.34,1.39
14498,-0.82,14.54,7.34,-4.37,1.78,3.07
14524,3.82,18.95,4.89,-4.37,-0.45,-4.37
14549,4.35,-8.04,2.06,-4.37,0.63,-4.37
14575,3.66,-11.68,8.03,-4.37,-1.04,-2.56
14600,2.24,-13.28,8.55,0.03,-0.16,0.22
14626,1.54,-7.22,9.0,2.63,0.61,1.85
14652,1.7,-11.24,5.59,4.37,0.67,3.45
14677,2.4,-3.45,-4.73,4.37,-1.27,4.37
14703,6.16,6.44,9.19,3.52,0.28,2.02
14728,0.81,3.61,7.56,2.52,0.35,1.79
14754,2.61,0.55,7.24,3.71,0.61,2.37
14780,2.2,1.91,5.75,4.37,1.05,3.1
14805,-6.66,19.61,5.42,-3.67,-0.58,-1.93
14831,7.38,17.29,-2.77,-4.37,-0.54,-4.37
14856,13.31,-19.61,1.93,-4.37,-1.04,-4.37
14882,0.62,-19.61,7.61,-4.37,-1.66,-1.51
14908,4.87,-10.43,8.59,0.14,-1.2,-0.19
14933,1.33,-6.89,7.98,2.81,0.6,1.39
14959,-0.77,-10.14,5.82,4.37,1.09,2.46
14984,5.0,-9.76,-3.86,4.37,0.42,4.37
15010,-16.98,19.61,-0.9,2.79,-0.43,3.27
15036,0.26,2.22,10.1,0.92,0.17,0.38
15061,1.15,2.64,10.15,0.7,0.01,0.09
15087,0.4,4.86,9.67,-0.32,0.09,-0.02
15112,-9.79,19.61,15.11,-4.37,1.56,1.56
