Time_ms,Ax,Ay,Az,Gx,Gy,Gz
0,1.95,-9.55,10.54,3.12,-0.08,1.2
26,-0.72,-9.62,2.05,4.37,0.92,2.28
52,-9.6,-6.63,-5.77,4.37,2.29,2.73
77,0.07,8.88,9.81,3.28,0.66,1.51
103,-0.09,6.39,8.95,1.84,0.06,0.38
128,2.46,5.62,7.52,0.36,-0.02,-0.12
153,-1.62,19.61,14.48,-4.37,1.41,-2.12
180,6.24,15.43,-2.25,-4.37,-1.06,-4.37
204,2.74,-7.81,4.2,-4.37,-0.46,-2.77
230,4.31,-13.15,10.47,-3.34,-1.79,1.06
255,0.28,-4.67,10.31,0.29,-0.59,0.93
281,2.61,-9.76,9.76,3.74,0.02,1.41
306,-0.68,-10.56,1.88,4.37,0.32,3.0
332,0.02,5.0,2.05,4.37,4.37,3.8
358,2.63,8.62,5.98,4.37,0.45,2.6
383,1.1,8.27,6.45,4.08,0.4,1.47
409,-7.13,19.61,10.21,-0.7,1.09,-0.36
434,-1.77,15.73,5.38,-4.37,-1.07,-3.04
460,8.09,12.66,-6.67,-4.37,-0.78,-4.37
486,13.04,-9.74,6.85,-4.37,0.19,-4.0
510,4.26,-16.29,7.47,-2.54,-1.1,0.75
536,-0.67,-10.09,9.71,3.41,-0.37,1.47
561,1.45,-10.1,5.1,4.37,0.13,3.9
587,-2.12,7.77,14.88,4.37,-0.16,4.37
613,3.0,10.72,7.18,3.12,0.09,0.33
638,0.97,8.14,8.64,-0.04,-0.22,-0.97
664,1.02,-1.32,10.26,-0.4,-0.06,-1.14
689,0.45,-0.72,10.17,-0.01,-0.09,-0.91
715,-19.61,19.61,2.72,-4.37,0.63,-1.71
741,19.08,-2.23,11.34,-4.37,4.37,-4.37
766,-0.71,-19.61,6.53,-4.37,-1.55,-2.19
792,2.67,-14.47,8.93,0.23,-1.81,1.13
817,0.79,-6.88,9.92,2.9,-0.68,1.41
843,-0.41,-3.6,5.97,4.37,0.12,1.59
869,-1.31,-4.39,3.96,4.37,-0.12,2.15
893,2.81,0.29,10.07,4.37,0.21,2.21
919,0.23,2.56,8.58,4.37,1.53,2.74
944,0.87,6.81,8.55,3.98,0.7,1.7
970,0.58,8.64,9.66,0.59,0.11,-0.1
996,1.99,19.61,13.17,-2.43,1.33,-3.06
1021,8.34,12.78,5.46,-4.37,-0.02,-4.37
1047,9.62,1.19,-2.08,-4.37,-1.84,-2.46
1072,-2.78,-11.34,7.41,-4.37,-0.86,-1.06
1098,0.58,-11.49,10.5,-0.27,-1.3,-0.08
1124,1.15,-1.22,8.83,1.9,-0.49,1.06
1149,0.17,-3.88,10.41,1.52,0.13,0.65
1175,-0.47,-4.64,8.96,1.32,0.22,0.38
1200,-0.37,-3.03,7.96,1.35,0.27,0.37
1226,-0.03,-2.44,9.18,0.99,0.29,0.45
1252,0.43,-2.63,9.56,0.66,0.17,0.38
1277,0.33,-1.86,9.51,0.63,0.06,0.36
1303,0.65,-0.56,9.88,0.43,0.07,0.29
1328,0.48,-0.75,9.94,0.01,0.16,0.06
1354,0.16,-1.51,9.68,-0.25,0.15,-0.11
1379,0.08,-1.95,9.69,-0.27,0.19,-0.13
1404,-0.01,-3.04,9.54,-0.14,0.15,-0.06
1430,-0.16,-2.3,9.45,0.04,0.1,-0.0
1455,0.04,-1.36,9.64,-0.03,0.01,-0.01
1481,-0.4,-2.02,9.57,-0.06,0.04,-0.02
1507,0.04,-2.15,9.56,-0.04,0.05,-0.08
1532,0.03,-2.14,9.62,0.03,0.05,-0.01
1558,-0.18,-1.71,9.61,-0.01,0.02,-0.02
1583,0.13,-1.75,9.78,-0.05,0.03,-0.01
1609,-0.02,-2.16,9.66,-0.07,0.04,-0.01
1634,-0.09,-2.05,9.71,-0.02,0.02,-0.01
1659,-0.07,-2.13,9.63,-0.03,0.03,-0.01
1685,-0.45,-2.91,9.23,0.14,-0.09,-0.08
1710,0.27,-3.05,9.3,0.6,0.01,0.08
1736,0.52,-3.84,9.11,1.62,-0.09,0.59
1762,-0.76,-1.17,9.49,3.1,-0.17,1.16
1787,-0.86,1.26,10.61,3.4,0.02,1.26
1813,-0.5,3.83,9.21,1.53,0.09,0.05
1838,-0.36,2.1,9.87,0.11,-0.12,-0.88
1864,-0.37,-0.15,9.82,-0.36,0.02,-0.02
1889,-0.01,0.06,9.93,-0.29,0.09,-0.01
1914,4.46,-1.05,12.64,-3.4,-0.35,-2.01
1940,1.57,-0.82,8.92,-1.9,0.15,-0.59
1965,-0.15,-1.48,9.06,-0.88,0.09,-0.42
1991,0.21,-1.48,9.9,-0.04,0.03,-0.01
2017,0.01,-1.16,9.81,-0.23,0.04,-0.01
2042,-0.07,-1.43,9.73,-0.15,0.03,-0.01
2068,0.01,-1.51,9.72,-0.04,0.03,-0.01
2093,0.01,-1.29,9.87,0.01,0.03,-0.01
2119,-0.0,-1.03,9.82,-0.0,0.03,-0.0
2145,-0.02,-1.09,9.89,0.01,0.03,-0.01
2169,0.11,-0.91,9.84,-0.06,0.02,-0.01
2195,-0.01,-0.91,9.84,-0.11,0.03,-0.01
2220,0.05,-1.17,9.78,-0.15,0.03,-0.01
2246,0.07,-1.1,9.74,-0.16,0.03,-0.01
2272,0.02,-1.26,9.89,-0.12,0.03,-0.02
2297,0.1,-1.38,9.73,-0.08,0.03,-0.01
2323,-0.02,-1.16,9.73,-0.07,0.03,-0.01
2348,0.01,-1.17,9.7,-0.08,0.03,-0.0
2374,0.07,-1.39,9.73,-0.04,0.03,0.01
2399,0.0,-1.19,9.87,0.02,0.03,0.04
2424,0.03,-1.25,9.88,-0.0,0.03,0.03
2450,0.01,-1.33,9.76,-0.0,0.03,0.03
2475,-0.01,-1.26,9.78,0.03,0.03,-0.0
2501,-0.04,-1.2,9.77,0.04,0.02,0.04
2527,-0.02,-1.54,9.76,0.09,0.02,0.09
2552,-0.18,-3.1,9.31,0.59,0.01,0.09
2578,0.88,-5.05,7.09,2.99,-0.1,1.15
2602,3.56,7.76,13.28,2.27,0.22,0.44
2628,-0.38,3.55,9.97,0.48,0.17,-0.13
2653,-1.34,3.08,9.43,0.3,0.0,-0.85
2679,-0.33,1.28,9.93,-0.17,-0.02,-1.02
2705,-1.59,-2.43,10.16,1.11,-0.06,-0.71
2730,-1.86,1.76,9.45,1.59,-0.27,-1.28
2756,19.61,-6.96,19.61,-4.37,0.49,-4.37
2781,2.09,6.05,-6.14,-4.37,0.99,-4.37
2807,4.6,-18.61,1.48,-4.37,-1.37,-1.29
2833,4.2,-15.74,10.59,2.04,-0.32,0.99
2858,3.26,-12.61,4.62,4.37,0.53,4.37
2884,-2.1,5.15,6.93,2.88,-0.35,1.08
2909,-1.67,-12.86,6.95,4.37,-0.87,2.95
2935,7.92,12.45,17.93,4.37,-0.95,4.37
2961,-0.23,8.54,7.8,3.84,0.3,2.54
2986,-2.38,7.19,9.21,1.25,0.16,1.02
3012,-1.5,3.59,9.38,-0.39,-0.06,-0.61
3037,0.49,-0.71,10.37,-0.57,0.01,-0.31
3063,0.19,-0.38,10.06,0.09,0.04,0.11
3089,5.49,9.67,6.82,-4.37,-0.67,-4.37
3114,8.42,-2.33,15.11,-4.37,-0.26,-4.37
3140,0.36,-6.87,9.15,-1.04,0.22,-1.31
3165,0.69,-1.85,9.84,1.05,0.08,-1.99
3191,0.34,-1.18,8.7,3.67,-0.54,-1.2
3216,-5.98,13.43,10.4,1.0,-0.3,-0.9
3241,-3.47,-2.07,9.4,-0.34,-0.02,0.62
3267,-1.64,-6.42,10.14,2.05,0.11,0.34
3292,-0.01,-0.52,10.48,1.27,0.08,1.57
3318,0.3,-1.91,10.25,0.24,-0.13,-0.11
3344,0.92,1.28,9.89,0.51,-0.06,-0.03
3369,-3.79,19.61,17.18,-4.37,1.35,2.29
3395,11.13,17.34,1.05,-4.37,3.92,-4.37
3420,3.8,-17.88,10.74,-3.71,-1.31,-0.47
3446,-1.14,-5.84,10.69,1.02,-0.13,-1.17
3472,0.97,-7.0,8.92,2.8,0.44,0.27
3497,0.32,-10.28,5.05,4.37,0.88,2.32
3523,1.75,-4.5,1.28,4.37,0.04,4.37
3548,1.65,7.75,6.64,2.97,0.13,1.3
3574,2.05,2.41,9.92,1.88,0.28,1.38
3600,0.69,0.28,7.64,2.69,0.34,1.37
3625,3.24,0.05,9.58,4.37,0.77,2.67
3651,4.43,16.54,11.71,-3.06,-0.07,-0.68
3676,4.62,13.64,2.34,-4.37,-0.63,-3.49
3702,0.12,-11.18,3.6,-4.37,-0.34,-2.63
3728,-1.09,-1.11,9.89,-4.37,-1.12,-2.77
3753,2.34,-12.68,10.39,-2.21,-0.09,-1.46
3779,-2.2,-9.72,5.96,4.04,0.19,0.63
3804,0.87,-10.37,3.43,4.37,1.0,2.91
3830,-12.88,3.77,-2.41,4.37,2.15,3.24
3856,5.03,-2.65,8.09,4.37,0.44,2.89
3881,4.93,2.34,7.24,4.37,1.14,4.37
3906,3.0,7.99,6.1,4.37,0.94,4.01
3931,-1.56,15.32,8.65,-2.5,0.98,-1.52
3957,-1.1,14.58,7.26,-4.37,0.04,-0.24
3983,-0.87,17.78,-4.45,-4.37,-0.89,-3.11
4008,3.4,-5.78,-1.01,-4.37,-0.11,-4.37
4034,0.25,-10.87,8.03,-4.37,-0.54,-1.64
4059,0.72,-14.04,8.65,-1.89,0.19,-1.55
4085,-4.03,-9.7,6.55,3.03,0.68,-0.33
4111,1.18,-13.39,4.4,4.37,0.39,0.89
4136,-1.46,-4.73,-2.65,4.37,-1.08,4.12
4162,0.66,10.55,6.64,3.86,0.1,2.78
4187,3.37,4.09,8.23,3.7,1.02,2.8
4213,0.74,4.93,7.57,3.14,0.86,2.06
4239,-16.46,19.61,4.19,-1.13,0.8,0.63
4264,2.64,19.61,2.77,-4.37,-1.12,-4.37
4290,-1.23,-1.58,-1.76,-4.37,0.55,-4.37
4315,4.3,-19.61,9.6,-4.37,-0.08,-4.34
4341,-0.9,-16.19,5.78,3.85,0.26,-0.42
4367,1.95,-9.9,3.6,4.37,1.07,2.38
4392,-0.43,-0.66,11.47,4.37,-0.2,2.79
4418,1.55,2.52,9.15,2.25,0.12,0.95
4443,1.63,1.75,9.28,1.76,0.29,1.0
4469,4.6,0.63,10.67,1.69,0.41,2.35
4494,-2.15,18.63,1.95,-4.37,-0.37,-1.92
4519,2.96,-8.15,19.17,-4.37,0.09,-1.44
4545,-2.25,7.97,11.75,-2.74,-0.91,-2.23
4571,4.73,-13.15,12.31,-0.3,-0.54,-1.87
4597,-0.77,-10.3,6.83,4.37,0.82,-0.03
4623,3.19,-8.49,9.66,4.37,0.96,2.55
4647,4.07,5.88,8.81,3.57,0.04,2.19
4673,3.24,0.65,8.81,2.88,0.56,2.21
4698,1.59,1.71,9.65,2.63,0.78,2.29
4724,2.73,14.56,12.14,1.46,1.05,2.45
4750,2.64,17.8,6.12,-4.37,-0.68,-3.15
4775,-0.17,1.22,3.32,-4.37,0.51,-3.54
4801,1.71,0.63,13.61,-0.56,-0.5,-1.17
4826,-1.38,-10.45,6.52,3.24,-0.64,-0.47
4852,-5.3,9.57,2.03,3.53,1.67,0.32
4878,0.88,-5.51,10.76,-0.45,-0.16,-0.81
4903,0.31,-3.44,10.29,0.95,0.21,0.7
4929,1.64,-1.81,10.16,1.2,0.28,1.38
4954,0.83,-1.09,11.42,1.1,0.44,2.31
4980,0.57,4.21,2.37,-4.37,-0.46,-2.61
5006,0.15,-11.78,6.95,-1.9,-0.3,0.52
5031,3.51,4.45,10.85,0.5,-0.06,0.0
5057,-0.83,-5.3,7.27,0.94,-0.03,-0.07
5082,-2.23,-7.19,7.09,4.37,-0.18,0.45
5108,8.96,19.61,19.61,2.19,0.53,0.79
5134,-2.03,-5.58,10.27,0.93,-0.06,-1.13
5159,-0.63,-5.78,10.3,1.72,-0.18,0.77
5185,0.87,3.32,9.42,1.44,0.33,1.08
5209,1.91,2.97,10.35,0.29,0.09,0.41
5235,1.68,1.07,10.05,0.01,0.18,0.51
5261,2.62,3.45,9.99,-3.46,-0.28,-1.33
5286,1.37,-2.19,11.1,-0.28,0.1,0.46
5312,0.82,5.68,9.22,-0.26,-0.0,-0.11
5337,0.34,3.7,9.45,-1.02,0.01,-0.59
5363,0.5,2.86,9.65,-0.8,-0.09,-1.14
5389,0.35,0.62,10.76,0.85,-0.01,-1.16
5414,-2.49,-1.82,9.94,0.59,-0.07,-1.68
5440,-3.23,-0.94,10.15,0.72,-0.08,-0.13
5465,-1.65,-3.33,10.24,0.64,-0.01,0.19
5491,-0.29,-1.61,10.1,0.08,0.09,0.18
5517,0.97,-1.22,9.68,-1.24,0.14,-0.02
5542,-1.34,1.31,15.09,-4.37,-0.19,-1.14
5568,2.37,-3.5,6.93,-1.84,-0.12,1.17
5593,4.13,7.38,11.62,0.31,-0.15,1.29
5619,-0.82,-3.91,8.76,1.76,-0.13,1.11
5645,-1.43,-1.54,10.45,4.37,-0.14,2.7
5670,-1.13,-2.62,7.6,3.5,0.32,2.34
5695,-1.42,-1.67,7.24,3.96,0.35,1.92
5720,1.36,3.46,8.66,4.37,0.81,3.17
5746,-1.86,8.4,6.98,3.35,0.57,1.77
5772,-1.77,13.13,7.99,0.85,-0.74,-0.69
5797,3.84,19.61,-3.92,-4.37,-1.14,-4.37
5823,19.61,12.42,-19.61,-4.37,0.54,-4.37
5848,19.61,-19.61,19.61,-4.37,0.7,-3.05
5874,0.76,-19.61,9.93,3.35,-0.03,1.61
5900,6.24,-7.91,3.69,4.37,0.69,4.37
5925,2.13,-1.4,0.79,4.37,-2.05,3.0
5951,-4.44,17.27,19.61,4.37,0.96,4.37
5976,3.01,0.45,8.07,1.41,0.12,-0.25
6002,-1.13,-2.06,10.41,3.77,-0.27,-1.44
6028,-2.15,0.61,7.42,4.37,-0.23,-0.62
6053,-0.43,7.43,6.91,4.37,-0.39,-0.5
6079,-7.47,14.87,7.05,-1.07,0.16,0.16
6104,-2.83,15.87,7.46,-4.37,-2.1,-4.37
6130,10.69,3.47,2.27,-4.37,-0.76,-3.46
6156,-14.83,-1.73,8.94,-2.49,0.26,1.31
6181,2.24,0.76,10.55,-0.78,-0.19,1.07
6207,0.83,3.18,9.64,-0.58,-0.09,2.15
6232,-2.83,6.44,13.28,-0.49,0.39,0.08
6258,-4.52,0.83,9.68,0.26,0.02,-0.75
6284,-1.73,-4.45,10.27,-0.3,0.01,-0.41
6309,0.56,-3.7,10.84,0.64,-0.01,0.4
6335,-0.76,0.14,9.72,1.41,0.09,0.37
6360,-0.35,-0.42,10.02,1.16,0.13,0.29
6386,5.7,10.58,9.33,-4.37,-0.53,-1.09
6412,4.73,-9.39,8.43,-0.66,0.42,-2.16
6437,0.28,9.99,10.87,0.38,0.11,-0.0
6462,2.27,-0.14,11.88,-0.78,-0.08,0.28
6487,-0.61,-1.44,9.79,-0.34,0.01,0.17
6513,0.15,-0.62,9.82,0.15,0.04,0.04
6539,0.59,-1.44,9.99,1.26,0.0,0.39
6564,1.54,2.55,10.66,1.79,0.1,0.53
6590,0.63,4.78,9.36,1.21,0.05,-0.3
6615,0.63,1.0,9.87,1.08,0.01,-0.48
6641,-0.14,-1.8,9.66,0.87,0.02,-0.25
6667,-2.0,-3.96,5.54,0.56,-0.07,0.68
6692,-1.17,-1.92,10.09,1.17,-0.11,0.52
6718,1.18,1.97,10.84,1.75,0.27,1.17
6743,-3.85,19.61,3.06,-4.37,-0.23,-0.33
6769,6.12,8.4,-19.61,-4.37,3.81,-4.37
6795,12.96,-16.67,12.73,-4.0,-1.6,0.21
6820,5.02,-2.94,10.17,1.68,-0.41,1.56
6846,-0.69,-6.68,7.1,2.92,0.02,0.99
6871,1.34,-8.0,5.39,4.37,0.9,3.49
6896,0.48,-5.35,5.46,4.37,0.41,4.37
6922,-3.66,11.24,19.61,4.37,-0.0,3.99
6947,2.38,5.67,6.29,4.02,0.18,1.46
6973,-0.11,6.51,7.91,1.6,0.15,0.79
6998,1.58,2.92,10.79,0.52,0.34,0.4
7024,0.25,1.89,9.78,0.71,-0.26,-0.54
7050,-12.35,18.46,-3.54,-4.37,0.25,1.61
7075,13.28,4.81,11.85,-4.37,-1.16,-4.37
7101,10.97,-12.77,11.79,-4.33,1.78,-4.37
7126,-2.46,-12.38,5.62,1.15,0.32,-1.28
7152,3.4,-2.75,6.92,4.37,-0.23,1.15
7178,-8.4,12.09,14.4,4.37,-0.44,-1.62
7203,3.11,6.19,8.88,1.17,0.58,3.05
7229,-4.04,-5.17,8.88,-0.86,0.44,1.98
7254,3.05,-1.86,9.92,0.15,-0.11,0.05
7280,-0.39,1.43,10.33,0.43,0.06,0.12
7306,0.29,1.39,10.69,-0.06,0.15,-0.44
7331,1.92,1.24,9.33,-0.05,0.02,-0.59
7357,2.77,3.93,9.74,-0.05,0.02,0.07
7382,1.02,-8.88,14.36,-4.37,-1.15,0.35
7408,0.31,0.41,9.84,0.05,-0.15,0.17
7434,-2.55,3.33,10.65,-0.52,-0.07,-0.78
7459,0.12,-3.76,9.41,-0.28,-0.12,-0.52
7485,0.55,-5.54,10.07,2.19,0.13,0.95
7510,-0.8,4.43,13.35,2.26,0.38,1.36
7536,1.56,2.62,8.77,0.29,0.08,0.14
7560,0.18,3.33,9.93,-0.68,-0.26,-0.65
7586,1.19,-0.98,10.36,-0.64,0.08,-0.72
7612,-1.34,-0.12,8.56,0.37,0.08,-0.33
7637,0.17,1.04,11.83,0.52,-0.37,0.0
7663,-5.02,-1.98,8.91,-0.87,-0.4,0.51
7688,-0.93,-3.79,7.55,0.08,0.08,1.27
7714,2.89,-0.85,8.58,1.04,0.28,1.58
7740,-0.9,2.97,9.83,0.99,0.33,1.61
7765,-0.41,0.96,9.84,0.83,0.13,0.54
7791,-0.4,13.4,7.63,-0.09,-0.39,-0.59
7816,-14.5,3.79,13.49,-4.37,0.08,-0.37
7842,-19.61,-9.42,6.26,-0.76,-0.18,1.69
7868,1.76,2.05,10.78,0.34,0.07,0.4
7893,-3.09,-1.64,9.04,2.48,-0.22,-0.25
7919,-5.81,8.91,10.24,0.69,-0.16,-0.18
7944,-1.58,-4.89,9.97,1.02,0.01,0.81
7970,0.2,1.82,9.61,1.95,0.21,0.78
7995,0.16,3.4,8.95,1.64,0.05,-0.4
8020,2.2,2.26,7.5,1.42,-0.03,-0.75
8046,0.21,2.84,10.26,0.49,-0.36,-1.07
8071,19.61,-0.25,19.61,-4.37,4.37,-4.37
8097,11.33,-19.61,10.4,-4.37,0.13,-2.81
8123,1.39,-1.3,9.34,0.27,0.07,0.26
8148,1.24,-4.28,8.8,1.24,0.08,1.16
8174,0.21,-5.7,8.28,1.37,-0.41,0.1
8199,0.07,-10.48,8.56,4.37,0.73,3.57
8225,0.27,-1.85,8.22,4.25,-0.34,2.05
8251,1.44,-0.94,9.79,4.1,-0.26,2.39
8276,1.99,9.96,11.2,1.04,0.2,0.47
8302,0.59,-1.83,9.96,-0.36,0.08,-0.74
8327,0.14,-5.14,10.08,0.75,0.1,-0.24
8353,-1.31,11.99,9.8,-0.23,0.27,-0.37
8379,3.33,-1.45,9.69,-0.49,0.04,-3.13
8404,0.59,0.48,9.55,-0.31,0.17,-1.33
8430,-0.64,2.08,9.72,0.03,-0.01,-0.32
8454,-0.02,2.27,10.06,-0.33,0.03,-0.4
8480,1.27,-1.24,9.67,0.21,0.01,-1.21
8506,-0.37,0.06,9.83,0.42,0.06,-0.7
8531,0.17,-1.67,9.9,-0.02,0.01,-0.5
8557,1.03,-0.58,9.82,0.23,0.15,-0.35
8582,0.16,1.44,9.47,0.74,-0.02,-0.71
8608,-0.92,0.07,8.52,1.33,0.0,-0.74
8634,0.76,1.03,10.41,0.73,0.2,0.13
8659,-1.49,3.32,9.78,0.11,0.01,-0.64
8685,-1.4,3.1,9.98,-1.17,-0.25,-0.03
8710,1.98,0.53,9.18,-1.76,0.11,0.64
8736,-0.59,-2.65,11.94,-1.44,-0.04,0.25
8762,-0.68,-3.03,9.45,0.72,-0.13,0.01
8786,3.61,1.3,9.13,0.21,-0.08,1.88
8812,2.7,0.97,10.47,0.02,0.01,0.98
8837,-5.51,19.25,7.84,-2.34,-0.18,-2.29
8863,1.94,1.07,9.68,-4.37,0.37,-4.37
8889,1.59,-13.09,6.88,-2.87,0.06,-2.28
8914,1.62,-4.28,10.02,1.29,0.25,1.25
8940,1.31,-5.81,8.83,4.37,0.37,1.45
8965,-11.16,10.58,11.34,4.37,-0.71,1.55
8991,-0.19,-4.72,10.26,0.89,0.0,-0.17
9017,-0.02,1.51,10.09,1.63,0.08,0.26
9042,3.54,-0.53,8.8,0.97,0.22,0.46
9068,2.77,1.19,9.77,0.55,-0.05,0.13
9093,3.48,0.21,-1.11,-4.37,-0.64,0.84
9119,2.95,-10.55,6.72,-3.63,0.09,-0.0
9145,8.15,10.49,10.98,-2.3,0.14,0.43
9170,0.6,-1.66,9.96,-4.37,0.21,-1.72
9196,1.57,-9.01,10.33,0.3,0.02,0.4
9221,-5.88,-19.61,0.82,4.37,0.05,1.33
9247,1.36,-9.89,5.26,4.37,-0.46,3.16
9273,0.47,1.64,9.35,-0.13,-0.37,-0.1
9298,-2.51,1.2,8.66,0.71,0.25,0.15
9324,1.55,2.72,9.59,0.69,0.07,-0.38
9348,0.58,0.83,9.68,0.15,-0.04,-0.79
9374,-1.16,18.46,5.77,-3.64,-0.32,1.0
9400,-10.52,-19.61,8.21,-4.37,0.42,-0.39
9425,-2.33,3.67,6.72,-4.37,-0.3,-1.66
9451,3.19,-9.16,7.62,-4.37,-0.53,-1.27
9476,1.96,-5.56,9.41,-0.26,0.47,0.45
9502,-0.59,-14.59,7.64,3.12,0.56,-0.05
9528,0.78,-9.31,3.16,4.37,0.87,4.37
9553,-3.93,19.61,-2.73,4.37,2.82,2.51
9579,1.71,2.77,9.99,0.71,0.24,0.22
9604,1.1,3.13,9.49,-0.05,0.01,-0.46
9630,0.54,1.98,9.56,-0.36,0.02,-0.54
9656,2.23,1.8,10.09,-0.4,-0.04,-0.68
9681,-19.61,1.57,14.21,-4.37,0.06,1.37
9707,6.7,-2.15,11.14,-1.16,0.05,1.94
9732,0.75,1.65,9.7,0.24,0.02,0.19
9758,-0.13,0.15,9.65,-0.05,-0.01,1.57
9784,2.46,-1.51,9.33,0.85,-0.17,2.89
9808,-2.66,6.53,11.11,3.01,-0.34,-0.03
9834,-1.89,-0.07,9.95,-0.68,0.05,-0.66
9859,0.78,-0.82,10.54,0.1,0.05,-0.01
9885,-0.86,3.86,9.47,0.36,0.0,-0.75
9911,-1.23,-1.13,9.84,-0.29,-0.08,-1.47
9936,1.26,-0.76,9.9,0.18,0.18,-0.71
9962,1.38,0.38,10.29,-0.24,-0.06,-0.34
9987,-13.2,19.61,12.14,-4.37,2.11,0.15
10013,19.61,16.74,6.84,-4.37,1.83,-4.37
10039,-3.1,-19.61,4.5,-3.8,-0.61,-1.7
10065,-14.05,7.92,15.02,1.23,0.15,2.05
10091,0.07,-15.04,8.72,3.01,-0.31,0.81
10116,4.6,-18.56,1.07,4.37,-0.97,3.38
10142,-0.04,19.61,-12.58,4.37,4.37,4.37
10168,0.38,17.67,8.19,1.0,0.33,1.14
10193,1.9,3.0,10.37,0.23,-0.17,-0.66
10219,0.9,-1.28,10.45,0.99,-0.06,-0.19
10244,-0.73,4.96,8.78,0.56,0.06,0.11
10270,-19.61,15.86,3.04,-4.37,-0.05,-1.06
10296,2.85,-14.49,-12.41,-4.37,4.37,-4.37
10321,-1.8,-13.91,3.55,-4.37,0.79,-2.34
10347,3.92,-10.66,9.81,0.13,-0.45,1.33
10372,1.59,-8.97,10.44,2.0,-0.47,1.23
10398,3.53,-11.08,4.89,4.37,-0.77,3.18
10424,2.69,-2.88,17.3,4.37,-0.75,4.37
10449,5.48,14.03,6.39,2.04,0.78,1.89
10475,-0.15,2.38,9.66,-0.63,-0.09,-0.8
10500,0.03,4.08,9.42,-0.78,-0.07,-1.24
10526,0.61,1.69,10.08,-1.07,-0.2,-1.88
10552,-3.67,-2.31,14.25,-0.93,-0.35,-0.98
10577,-0.69,-2.21,9.6,-0.24,0.03,-0.01
10603,19.61,-19.61,19.03,-4.37,1.07,-4.37
10628,5.95,-0.06,9.15,-4.37,0.02,-3.46
10654,3.0,-10.84,14.99,-3.08,-0.13,1.23
10680,-0.05,-5.98,10.27,1.17,0.07,1.61
10705,1.92,-10.74,10.07,3.16,-0.37,0.72
10731,2.25,-10.64,2.86,4.37,-0.83,3.31
10756,14.17,19.61,19.61,4.37,0.03,4.37
10782,0.42,10.75,10.8,0.16,-0.03,0.03
10808,0.94,2.74,9.36,-0.38,-0.11,-0.87
10833,1.28,-1.51,10.22,0.02,-0.12,-0.71
10859,1.63,3.62,11.46,0.78,-0.11,0.21
10884,4.68,6.65,-3.9,-4.37,-1.45,-4.37
10910,-10.18,-19.61,10.97,-4.37,-0.77,0.26
10936,-8.14,-12.5,5.61,0.15,-0.34,0.81
10961,-0.28,-3.9,9.42,1.28,-0.46,1.82
10987,0.81,-1.08,9.37,2.02,-0.3,1.69
11012,2.26,-7.34,8.15,2.73,-0.16,1.82
11038,-1.21,-5.6,18.03,4.37,-0.79,1.98
11064,-4.28,9.9,5.14,3.92,-0.06,0.9
11089,4.37,8.29,7.93,1.3,0.11,1.25
11115,-0.44,6.26,8.77,-0.24,0.13,-0.26
11140,0.11,3.25,9.03,-0.28,-0.21,-0.75
11166,1.16,1.81,10.57,-0.51,-0.35,-0.21
11192,-19.61,19.61,19.61,-4.37,3.03,-2.11
11217,-15.5,-12.39,-19.61,-4.37,-2.11,-4.37
11243,-14.53,-19.61,2.72,-4.37,1.06,1.21
11269,10.03,-11.71,6.61,2.61,-0.13,1.09
11295,1.66,-8.84,10.24,4.2,-0.91,1.97
11321,4.84,-15.54,0.85,4.37,-1.05,4.04
11346,-19.61,4.62,-19.61,4.37,1.62,4.37
11372,-0.94,14.91,6.34,2.23,0.24,1.84
11397,-1.81,4.89,7.1,1.02,-0.06,0.39
11423,-0.48,3.52,10.47,0.31,-0.25,-0.58
11449,-0.23,3.32,8.06,-0.91,-0.52,-0.88
11474,-1.13,1.14,10.17,-1.3,-0.53,-1.22
11500,6.93,19.19,12.11,-4.02,0.76,-1.72
11525,-1.41,-1.52,-2.26,-4.37,-0.57,-4.37
11551,17.42,-9.29,8.71,-2.43,0.82,-2.19
11577,4.05,-3.22,11.1,1.04,0.01,1.1
11602,0.85,-1.18,8.59,2.19,-0.06,0.83
11628,-0.19,2.6,10.69,3.37,-0.28,-0.09
11653,-19.61,17.18,10.71,1.68,0.49,-1.97
11679,1.43,7.35,10.02,1.22,-0.3,-3.74
11705,-0.65,1.31,8.23,1.2,-0.49,-4.37
11730,-0.71,5.41,10.14,0.08,0.07,-1.59
11756,-2.47,1.74,8.57,-2.45,0.0,0.84
11781,-3.67,-5.03,11.22,-2.43,-0.41,0.99
11807,-0.57,-7.69,9.11,-0.9,0.02,1.81
11833,2.43,-5.46,12.63,-0.28,-0.23,2.37
11858,11.37,4.28,16.02,-4.37,0.88,-1.08
11884,-0.1,-2.21,5.86,-4.37,0.37,-2.23
11909,9.99,-3.59,10.77,-3.28,0.99,-0.78
11935,4.5,-6.27,11.35,0.13,0.77,-1.7
11961,-7.29,-3.2,8.01,2.72,0.08,-0.16
11986,-1.23,-6.52,7.19,4.37,0.65,-2.91
12012,12.16,19.61,19.61,4.37,-0.95,-1.93
12037,-2.54,-0.69,8.71,3.09,0.18,2.64
12063,2.25,0.29,8.83,2.53,1.4,4.37
12089,1.53,5.73,10.32,1.75,1.45,4.37
12114,2.69,3.62,8.72,1.2,1.89,4.37
12140,-8.19,4.02,7.51,2.09,0.31,0.84
12165,-5.17,17.86,10.73,-4.37,0.49,-1.87
12191,6.72,4.74,0.31,-4.37,0.36,-2.32
12217,2.63,-11.58,4.41,-4.37,-0.91,-3.22
12242,3.16,-19.52,10.77,-0.39,-0.05,1.74
12268,2.47,-0.47,8.81,4.37,0.18,3.92
12293,0.8,1.26,7.45,4.37,-0.11,2.67
12319,19.61,19.61,19.61,3.27,-0.32,1.22
12345,-2.03,8.32,14.0,0.79,-0.17,-0.54
12370,-1.68,0.23,8.7,-0.05,-0.36,-1.27
12396,-1.11,0.98,10.35,-0.46,-0.52,-1.2
12421,1.91,-0.16,9.6,-1.0,-0.41,-1.42
12447,4.0,0.08,9.81,-0.6,0.47,-1.03
12473,-19.61,19.61,0.28,-4.37,-0.58,1.06
12498,14.34,-5.3,5.76,-4.37,1.02,-3.1
12524,-0.28,-13.62,11.77,-2.87,0.7,-3.46
12549,2.31,-9.21,9.23,1.33,0.36,0.74
12575,-0.89,-4.69,8.47,1.7,-0.03,-0.03
12601,1.7,-2.94,10.79,1.4,-0.07,0.44
12626,0.67,-4.03,6.74,2.01,-0.18,0.73
12652,2.57,-3.62,7.85,2.87,-0.21,1.21
12677,0.87,-1.77,9.06,3.28,-0.29,2.0
12703,-1.16,3.19,9.83,1.58,0.11,1.56
12729,-0.62,4.59,5.63,-2.99,-0.66,0.38
12754,5.24,-3.39,7.33,1.48,0.81,-0.57
12780,-0.43,3.63,8.77,1.76,-0.07,-0.73
12805,0.39,3.91,10.21,-0.27,-0.05,0.25
12831,-2.21,0.67,10.7,-0.89,0.28,1.19
12857,2.11,-2.79,9.36,-0.5,0.08,0.94
12882,0.14,-3.46,9.8,0.56,0.08,0.89
12908,0.63,-0.11,10.11,0.94,0.0,0.34
12933,-0.01,1.42,9.42,0.75,-0.05,0.14
12959,-12.84,10.68,-6.33,-3.0,-0.47,-2.49
12985,-18.73,4.18,-7.64,0.53,-0.12,-1.0
13010,2.9,4.52,12.34,-0.82,-0.01,-0.59
13036,-1.55,-4.74,8.12,-0.68,0.2,-0.14
13061,-0.88,-5.41,9.06,0.23,0.06,-0.28
13087,-0.02,-3.95,10.23,1.55,-0.06,-0.1
13113,1.1,3.05,10.45,1.45,-0.01,0.43
13138,1.83,4.27,9.29,0.28,-0.04,1.76
13164,-2.11,2.72,9.93,-1.22,0.01,1.33
13189,14.7,-4.85,8.84,-1.52,0.6,-3.6
13215,0.89,0.43,10.38,2.38,-0.18,0.12
13241,-1.21,4.01,10.75,1.72,0.04,0.55
13266,1.48,4.4,9.99,-0.78,-0.03,1.21
13292,-0.27,-2.41,10.96,-0.97,-0.03,1.3
13317,0.55,-2.39,3.46,0.52,-0.14,1.44
13343,0.02,1.03,9.67,0.26,0.09,1.56
13369,-3.15,-0.81,9.73,-0.19,0.0,-0.01
13394,-7.99,-2.67,-2.67,-3.87,-0.46,-2.54
13420,10.52,1.42,9.27,2.71,-0.53,1.3
13445,-5.59,10.5,9.8,1.82,-0.11,-0.93
13471,2.86,2.57,8.62,1.06,-0.18,0.29
13497,-1.26,3.91,9.29,-0.09,0.35,1.35
13522,1.16,0.84,6.51,-0.75,0.27,1.73
13548,-1.53,1.38,9.83,-2.46,-0.48,0.09
13573,-0.41,-2.05,10.81,-2.07,0.11,-0.03
13599,-0.54,-8.5,8.46,-0.96,0.06,-0.14
13624,-4.93,-2.23,5.39,1.71,0.05,-1.06
13649,1.06,3.25,3.91,0.76,-0.05,-2.96
13675,2.76,5.99,5.01,1.62,0.4,-2.11
13700,-0.89,2.73,8.28,1.08,0.05,1.16
13726,1.91,2.32,8.95,0.0,0.18,3.03
13752,-2.1,4.15,9.55,-0.84,0.72,2.8
13777,-2.51,0.45,7.27,-1.32,0.09,-0.0
13803,0.55,-2.72,10.14,-0.83,0.01,-0.02
13828,-1.18,-6.42,7.02,0.13,-0.01,-0.03
13854,1.08,-1.23,6.81,1.89,0.21,-2.05
13880,-6.04,-7.12,6.39,1.11,0.39,-3.09
13905,0.82,8.54,9.24,2.06,-0.12,-1.79
13931,2.68,11.07,8.62,0.18,0.05,-1.63
13956,0.92,-0.02,10.33,0.37,-0.66,-3.03
13982,0.41,-6.98,9.5,2.65,-0.14,0.01
14008,-1.74,6.26,11.22,1.43,1.3,2.84
14033,-0.43,3.81,9.08,-0.61,0.91,2.78
14059,-0.81,2.92,9.36,-1.43,0.37,1.84
14084,-2.41,1.55,8.79,-0.77,0.02,0.44
14110,2.57,-1.2,5.61,-4.37,0.25,0.7
14136,1.84,1.16,10.1,-2.82,0.08,-1.53
14161,8.56,11.9,11.03,-1.92,0.75,-3.69
14187,2.8,-1.16,10.53,-1.19,0.36,-2.39
14212,-0.41,-6.29,8.61,1.76,-0.04,-1.19
14238,0.5,-2.39,9.73,3.5,0.03,0.85
14264,-4.04,-5.86,7.8,-0.02,-0.22,-0.02
14289,-2.43,-3.03,8.46,0.74,0.07,0.29
14315,0.29,0.57,9.89,0.85,0.13,0.23
14340,1.36,1.22,9.47,0.92,0.03,0.11
14366,-0.14,16.06,8.53,-1.52,0.37,1.86
14392,7.74,5.43,16.37,-2.31,0.48,-1.01
14417,6.58,7.07,9.02,-1.68,0.34,-2.42
14443,0.76,-2.81,9.28,0.44,0.32,-3.85
14468,-1.35,-6.11,8.8,1.26,-0.02,-0.19
14494,-0.42,-2.55,8.4,-0.79,0.03,2.71
14520,-9.33,-12.96,5.94,1.23,-0.3,-0.79
14545,-0.53,0.54,9.98,1.89,-0.27,0.88
14571,-2.86,-4.15,14.58,-3.77,0.16,3.6
14596,13.52,1.51,10.03,-0.99,0.47,-1.93
14622,1.9,11.62,11.07,-0.37,-0.04,0.27
14648,4.77,5.94,10.17,-2.15,0.25,-0.44
14673,-0.35,-8.05,7.82,1.08,0.06,-0.91
14699,-4.29,-5.94,10.96,3.21,-0.25,0.81
14724,-3.99,-4.52,3.02,0.56,0.17,0.95
14750,-4.43,-2.9,8.49,1.13,0.16,1.03
14776,-0.86,2.59,9.4,0.3,0.31,0.32
14801,7.14,-8.77,7.24,-4.37,0.32,0.68
14827,4.64,1.34,8.56,0.8,0.2,1.35
14852,1.3,12.68,10.48,-0.11,0.15,0.4
14878,3.6,6.83,10.62,-1.81,0.25,-1.32
14904,0.99,-5.12,9.1,-0.4,0.05,-1.91
14929,0.2,-10.74,8.7,3.18,0.11,0.52
14955,-4.56,-1.84,4.36,1.51,-0.07,0.55
